Folder: Log-XRD-Depth

File: Log_XRD_Depths_updated.csv
XRD Depth,offset,Nearest Log Depth,Quartz,Calcite,Dolomite,Siderite,Kaolinite,Chlorite,Illite/Mica,Mx I/S*,K-spar,Plag.,Pyrite,AF10,AF20,AF30,AF60,AF90,AO10,AO20,AO30,AO60,AO90,AT10,AT20,AT30,AT60,AT90,AFCO60,AORT,AORX,BFV,CBP1,CBP2,CBP3,CBP4,CBP5,CBP6,CBP7,CBP8,CDF,CFTC,CMFF,CMFF_SIG,CMR_PHI_CO,CMRP_3MS,CNTC,CTEM,DCAL,DNPH,DPHZ,DPH8,DSOZ,DWAL_WALK2,DWCA_WALK2,DWFE_WALK2,DWGD_WALK2,DWSI_WALK2,DWSU_WALK2,DWTI_WALK2,ECGR,ECST,ESUF_WALK2,GDEV,GR,GR_EDTC,GTEM,HCAL,HDRA,HDRB,HGR,HMIN,HMNO,HNPO,HPRA,HTNP,KSDR,KTIM,NPHI,NPOR,PEF8,PEFZ,PXND_HILT,QCPMT,RHGE_WALK2,RHO8,RHOZ,RSOZ,RXO8,RXOZ,SP,SPAR,STIT,T2LM,T2LM_SIG,TCMR,TENS,TNPH,WCAR_WALK2,WCLA_WALK2,WPYR_WALK2,WQFM_WALK2,DTCO,DTSM
10410.15,0.05,10410.1,35,8,1,0,0,2,24,17,3,9,1,14.6851,18.3887,21.8596,22.3449,20.2427,14.3881,18.667,23.1073,18.5308,17.9175,14.6374,18.6219,22.353,22.1871,22.3333,44.753,17.1752,10.7698,0.0856,0.0321,0.0338,0.0139,0.0076,0.0001,0.0024,0.001,0,1642.58,1657.44,0.0053,0.004,0.0008,0.025,3462.92,183.3412,0.9218,-0.0164,0.0756,0.0606,0.0135,0.0542,0.0371,0.0308,4.0245,0.3288,0.0064,0.0036,77.8359,61.2084,0.5,0.4921,71.2471,76.7407,182.2964,9.6718,-0.0127,0.0493,74.648,10.436,9.5506,0.1542,-0.0168,0.1503,0.0011,0.0029,0.1517,0.1497,4.0905,4.0561,0.1361,0.1607,2.7136,2.6063,2.5807,0.0001,14.7064,19.9587,-206.4811,-206.8074,0,1.9833,-999.25,0.0908,4670,0.1503,0.0249,0.2726,0.0119,0.6906,76.5114,126.3492
10450.15,0.05,10450.1,41,0,1,0,0,2,19,21,5,10,1,15.3901,20.2805,21.0149,18.5841,21.0845,13.8233,17.0861,18.4696,18.729,18.6655,14.4411,18.5186,19.6756,17.4556,23.0253,53.8096,16.8768,10.2781,0.066,0.0291,0.026,0.0107,0.0013,0.0065,0.0014,0.0002,0.0016,1635.83,1548.624,0.0107,0.0042,0.0008,0.0217,3411.45,183.3412,0.881,-0.0164,0.0807,0.0859,0,0.0495,0.0481,0.0278,6.6438,0.3246,0.0097,0.0029,94.4913,62.379,0.5079,4.2056,86.6481,98.7504,182.7997,9.631,-0.003,-0.0068,88.0036,24.0596,21.3777,0.1897,0.0569,0.1673,0.0007,0.0091,0.1817,0.1952,3.0503,3.1159,0.1486,0.4831,2.7137,2.5631,2.572,0.0001,30.5947,27.1337,-206.6066,-206.8319,0,2.2842,-999.25,0.0767,4679.2,0.1672,0.0543,0.249,0.0181,0.6786,73.8439,120.5396
10500.2,0,10500.2,45,5,1,0,0,2,16,13,5,11,2,21.9079,30.2686,32.0546,31.6336,29.604,15.8344,23.1448,23.7747,21.5855,21.1765,18.8521,24.9488,25.5969,24.7004,24.7408,31.612,22.8222,12.8102,0.0507,0.0159,0.026,0.0058,0.0068,0.0046,0.0001,0.0002,0.0011,1573.48,1984.66,0.0099,0.004,0.0008,0.0187,3780,183.8494,0.4596,-0.0126,0.0615,0.0553,0.0259,0.05,0.0688,0.0265,5.5901,0.301,0.0201,0.0034,97.3051,62.379,0.4968,2.2593,90.9254,94.065,183.303,9.2096,-0.005,-0.0086,88.3011,27.5824,24.5203,0.139,0.0761,0.1271,0.0004,0.0053,0.1426,0.1271,3.1861,3.2624,0.1167,0,2.7271,2.6154,2.6049,0.0001,35.0995,35.5736,-212.8585,-212.6671,0,2.8503,-999.25,0.0607,4706.33,0.1271,0.1101,0.2514,0.0375,0.6009,68.8037,112.4893
10520.2,0,10520.2,47,14,4,0,1,2,15,4,2,10,1,46.9287,123.7854,180.0811,137.4627,137.1535,48.1829,131.3592,162.1552,109.3251,118.4217,46.8738,127.9889,180.9498,135.0751,122.7654,7.2747,139.9653,16.7113,0.0306,0.0133,0.014,0.0029,0.0031,0.012,0.0003,0,0,1593.71,2474.38,0.015,0.004,0.0008,0.0182,4352.15,185.3176,0.4211,-0.0118,0.0781,0.0732,0,0.0396,0.0881,0.022,8.7512,0.2954,0.0062,0.0034,83.4414,60.0379,0.4498,2.1484,78.1072,88.8259,183.8063,9.1711,-0.0031,-0.0191,74.9697,272.777,244.2878,0.1098,0.0695,0.1071,0.0003,0.0105,0.1082,0.106,3.4113,3.4318,0.1037,0,2.7058,2.5848,2.5765,0.0005,366.3894,270.7239,-219.3162,-219.4082,0,4.0554,-999.25,0.0456,4637.2,0.107,0.1621,0.199,0.0117,0.6272,68.067,109.7214
10554.75,0.05,10554.8,30,29,7,0,0,1,21,4,1,4,3,25.8052,39.0499,42.2479,39.9319,37.893,25.4605,38.7292,41.7118,38.5862,38.0107,24.88,38.6638,41.3774,39.3851,37.9463,25.0426,40.6474,13.1523,0.0407,0.0121,0.0158,0.0066,0.0094,0.0007,0.0001,0.0001,0.0008,1549.405,3105.06,0.0048,0.0038,0.0008,0.0177,4789.2,185.3176,0.4981,-0.0114,0.0056,0.0066,0,0.0485,0.1812,0.027,2.1003,0.1712,0.0132,0.0021,83.8522,60.0379,0.4552,2.2269,78.2179,80.8882,184.3096,9.2481,-0.0025,0.0054,72.9901,47.1142,41.9558,0.084,0.0716,0.0783,0.0002,0.0006,0.0771,0.0801,4.3687,4.2627,0.0701,0.1757,2.7391,2.6987,2.7003,0.0001,60.0913,58.6098,-215.2096,-215.1341,0,2.9941,-999.25,0.0455,4587.167,0.0783,0.4125,0.2437,0.0247,0.319,62.7334,107.27
10590.85,0.05,10590.9,46,15.1,6.1,0,0.3,2.7,10,11.3,2.2,8.6,3,31.3226,56.3905,63.3792,55.5824,54.605,30.6998,49.0173,52.2085,46.6765,47.9365,29.7872,51.0241,56.1924,49.2471,49.3457,17.9913,52.6342,10.8862,0.0391,0.0176,0.0131,0.0038,0.0099,0.0038,0,0,0.0008,1568.25,2418.64,0.0099,0.0039,0.0008,0.0182,4166.73,185.3176,0.2209,-0.0104,0.0532,0.0503,0.0217,0.0495,0.073,0.0267,7.4092,0.2966,0.0168,0.0032,128.6892,62.379,0.4875,2.1229,121.5733,130.7778,184.4774,8.9709,-0.0048,-0.0183,118.7803,52.4398,46.7238,0.0983,0.0932,0.1035,0.0002,0.0037,0.1079,0.1014,3.4192,3.4964,0.0974,0.0871,2.7243,2.624,2.6191,0.0001,66.9239,71.6154,-222.5882,-222.6222,0,2.8744,-999.25,0.049,4587.2,0.1037,0.1213,0.2489,0.0314,0.5983,64.9876,107.6118
10610.85,0.05,10610.8,35.5,47,4.3,0.5,0,1.2,2.1,1.2,0.6,7,1.1,36.7152,83.0999,105.86,93.5365,84.0496,33.6405,68.217,79.7414,71.025,71.314,36.6183,78.3501,98.8095,89.2006,78.1777,10.691,85.1372,9.0721,0.0257,0.0075,0.0034,0.0092,0.0062,0,0,0.0002,0.0012,1560.67,3397,0.002,0.0038,0.0008,0.0168,5060.68,185.3176,0.3672,-0.0104,0.0485,0.0634,0.0624,0.0292,0.1678,0.0157,2.8151,0.2211,0.0084,0.0024,80.252,60.0379,0.3968,2.5006,75.3067,76.8082,184.8129,9.1172,-0.0082,-0.0454,77.164,85.0251,75.9068,0.0902,0.1534,0.0723,0,0,0.0625,0.0893,3.6407,3.8707,0.0706,0.4177,2.7103,2.6016,2.6271,0.0001,108.7432,129.1289,-221.267,-221.569,0,4.5449,-999.25,0.0277,4608.667,0.0723,0.3764,0.1466,0.0156,0.4614,58.4283,99.5323
10630.15,0.15,10630.3,48,11.4,5.5,0,0,3.6,11.6,10.8,2.7,8.2,3.3,36.6406,82.4835,109.6909,97.2101,90.6672,36.6922,82.6701,96.8391,84.8856,87.3036,36.3682,81.978,109.5802,97.4957,89.0231,10.287,99.6848,14.811,0.0554,0.0157,0.0144,0.0191,0.0066,0,0.001,0.0007,0,1551.79,2403.78,0.0021,0.0038,0.0008,0.0275,4218.11,185.3176,0.4442,-0.012,0.0536,0.0509,0.0178,0.0506,0.055,0.0266,6.3198,0.3163,0.0182,0.0046,103.5063,60.0379,0.5083,2.4685,96.7877,102.805,184.8129,9.1942,-0.0047,0.0066,96.0759,96.9567,86.5963,0.1132,0.0803,0.1065,0.0003,0.0002,0.1073,0.1052,3.4562,3.4691,0.0997,0,2.7227,2.623,2.6183,0.0001,124.0618,134.0715,-227.4697,-227.6983,0,2.781,-999.25,0.0575,4585,0.1064,0.0729,0.2544,0.034,0.6386,67.177,107.6725
10640.25,0.15,10640.4,26.6,53.4,4.1,0,0,1.9,3.8,1.3,0.6,8.4,0.5,45.5661,136.2589,271.6453,267.5558,222.3086,63.3918,124.2637,143.2946,140.3018,143.1814,50.8878,149.8218,233.9416,199.7572,219.6463,3.7375,143.6394,16.7103,0.0144,0.0037,0.0004,0.0061,0.0048,0.0043,0.0029,0,0,1545.87,6636.31,0.0079,0.004,0.0008,0.0182,6779.37,185.3176,0.3403,-0.0079,0.0155,0.0157,0.0118,0.025,0.2253,0.0137,4.6937,0.161,0.005,0.0024,37.691,61.2084,0.3562,2.7245,35.412,42.0904,185.3162,9.0903,0.001,0.0077,37.5623,408.5619,366.3673,0.0113,0.0632,0.0174,0.0001,0,0.0098,0.0125,4.4174,4.3832,0.0174,0.0866,2.7123,2.6832,2.6835,0.0035,1849.39,1786.61,-231.8787,-232.0489,0,11.588,-999.25,0.0223,4655.33,0.0174,0.5311,0.1258,0.0094,0.3338,56.8463,94.5293
10680.15,0.15,10680,59,1,2,0,0,1,15,3,9,9,1,31.0601,50.3798,55.3055,52.0946,48.6574,32.5336,54.4547,60.373,51.239,51.3093,31.4714,51.662,57.5334,53.3056,47.5188,19.1959,55.939,16.5923,0.034,0.014,0.0031,0.0093,0.0104,0.0004,0.0007,0.0003,0.0001,1552.2,2546.08,0.0043,0.0038,0.0008,0.0212,4341.74,187.2941,0.3264,-0.011,0.082,0.0865,0.1033,0.0465,0.0391,0.0255,7.0446,0.3409,0.0122,0.0032,94.2309,60.0379,0.4745,2.6407,88.5895,94.628,185.8195,9.0764,-0.0113,-0.0465,89.5176,76.6841,68.5068,0.0908,0.1576,0.1006,0.0001,0.0004,0.1047,0.096,3.0356,3.109,0.0987,0.0979,2.7109,2.5621,2.5698,0.0001,99.4558,80.7762,-227.1342,-226.432,0,3.3185,-999.25,0.0383,4610.2,0.1006,0.0302,0.2338,0.0228,0.7132,67.6226,108.6318
10700.15,0.05,10700.2,37.3,41.1,6.4,0,0,1,3.7,1,1.4,8,0.6,58.6128,373.2927,1473.78,751.536,495.8952,59.3796,431.6932,1458.12,496.6201,522.505,59.2199,395.956,1789.56,797.503,484.6501,1.3306,636.3303,16.1193,0.0187,0.0006,0.0041,0.0113,0.0028,0.0027,0.0027,0.0007,0.0003,1559.77,7076.64,0.0065,0.004,0.0008,0.0205,7048.67,187.2941,0.2987,-0.0076,0.0207,0.0267,0,0.0159,0.2283,0.0085,2.2889,0.1735,0.0064,0.0007,40.6909,61.2084,0.3147,2.3455,38.3035,40.3018,185.8195,9.0487,0.0018,-0.0017,36.024,399.7741,358.5162,0.0154,-0.0849,0.0147,0.0002,0.0003,0.0095,0.0178,4.4956,4.4576,0.0175,0.4868,2.7051,2.6644,2.6746,0.0084,2485.07,1921.09,-234.1618,-233.8326,0,11.009,-999.25,0.0252,4699.167,0.0147,0.5391,0.0798,0.012,0.369,54.3739,92.0912
10740.15,0.05,10740.2,48,15,1,0,0,2,13,7,5,8,1,27.8252,45.357,48.6715,43.9205,41.1256,29.2193,67.6458,61.8359,51.4519,50.3789,28.9156,52.3284,56.1707,49.2425,45.9211,22.7684,53.316,11.0709,0.0408,0.0047,0.0101,0.0192,0.0073,0,0.0025,0.0008,0,1558.41,3103.76,0.0037,0.0041,0.0008,0.0298,4689.22,187.2941,0.2132,-0.0096,0.0382,0.0338,0.0104,0.0429,0.0862,0.0224,5.2021,0.2932,0.0169,0.0036,85.6555,58.8674,0.4538,2.3213,80.948,86.648,186.8261,8.9632,-0.0017,0.0087,75.4111,84.9356,75.8362,0.0627,0.034,0.0761,0.0004,0.0003,0.0802,0.0666,3.5669,3.488,0.0728,0,2.7189,2.6521,2.6447,0.0001,108.6433,89.0514,-221.7482,-221.9056,0,5.1879,-999.25,0.0445,4677.8,0.0761,0.1569,0.2155,0.0317,0.5959,64.9115,105.7708
10804.15,0.05,10804.2,32,17,2,0,0,1,28,6,6,7,1,25.6882,38.3636,40.8145,39.0916,37.2691,26.3088,42.857,45.033,45.1443,45.1908,26.8887,41.3207,44.8029,41.749,40.1134,25.5809,46.9861,11.9212,0.0435,0.0157,0.0157,0.0079,0.0071,0.0026,0.0019,0.0005,0,1548.426,2790.17,0.0079,0.004,0.0008,0.02,4404.25,189.2706,0.1785,-0.0096,0.0381,0.0378,0,0.0468,0.1032,0.0252,2.2378,0.2662,0.0146,0.0036,86.3737,58.8674,0.4742,2.0476,81.7575,89.0373,187.8327,8.9285,-0.0018,-0.0224,74.7311,50.299,44.8161,0.0755,0.0296,0.085,0.0002,0.0023,0.0979,0.0789,3.7757,3.7801,0.0803,0.3331,2.7241,2.6453,2.6449,0.0001,64.1914,64.344,-224.9007,-224.7312,0,2.9974,-999.25,0.0514,4670.67,0.085,0.2025,0.235,0.0273,0.5352,63.6227,107.3042
10857.15,0.05,10857.1,30,46,7,0,0,1,7,1,3,5,0,43.0656,84.7816,93.6149,83.2545,80.4253,38.1618,66.9468,69.5297,62.8456,63.9375,41.1516,73.8702,81.3794,73.7512,69.9872,12.0114,70.8149,17.283,0.0506,0.0086,0.0159,0.0177,0.0099,0,0,0,0.0011,1521.52,2856.71,0.0027,0.0039,0.0008,0.0288,4615.24,189.2706,0.0306,-0.0088,0.0515,0.0431,0.0779,0.035,0.1256,0.0196,8.6392,0.2596,0.0031,0.0033,96.276,57.6968,0.4682,2.4131,91.7599,97.315,188.8394,8.7806,-0.0098,-0.042,94.0967,66.808,59.5984,0.0896,0.1772,0.0906,0.0005,0.0003,0.0969,0.096,3.6402,3.7929,0.0866,0.0565,2.7041,2.6364,2.6219,0.0001,85.3742,94.6067,-234.8162,-234.5617,0,3.8814,-999.25,0.0534,4677.6,0.0906,0.2629,0.1758,0.0058,0.5555,62.2023,102.8448
10879.65,0.05,10879.7,34,37,2,0,0,1,15,1,3,6,1,49.6171,138.8872,185.1489,156.1865,142.2857,56.9182,190.514,212.9951,183.5851,198.5005,51.3179,151.0136,190.6402,159.6581,143.5948,6.4026,214.5927,18.757,0.0393,0.0029,0.0123,0.0191,0.0063,0.0012,0.0001,0,0.0007,1523.32,3355.26,0.0033,0.0038,0.0008,0.0274,5052.22,189.2706,-0.0333,-0.0083,0.0429,0.038,0.0739,0.03,0.1821,0.0159,1.699,0.2032,0.014,0.0011,94.776,62.379,0.385,1.9148,90.6014,97.2623,189.3427,8.7167,-0.0052,-0.0252,94.3114,257.4559,231.2276,0.0741,0.1271,0.0767,0.0003,0.0002,0.0784,0.0756,4.0853,4.0802,0.0737,0,2.7198,2.6451,2.6366,0.0001,401.3709,269.8477,-244.0037,-244.1063,0,4.7237,-999.25,0.0426,4706.17,0.0765,0.4149,0.1507,0.0262,0.4082,59.4268,100.3568